{
  "resourceType": "Bundle",
  "id": "8ace5d21-6b11-41b7-9364-d86d4b54f362",
  "identifier": {
    "system": "urn:ietf:rfc:3986",
    "value": "urn:uuid:10b572ef-207f-45f3-a093-c36b32baf05e"
  },
  "type": "document",
  "timestamp": "2025-03-21T17:13:00.862-03:00",
  "entry": [ {
    "fullUrl": "urn:uuid:127ee971-8dcc-4db8-96ba-cb5baac130d3",
    "resource": {
      "resourceType": "Composition",
      "id": "127ee971-8dcc-4db8-96ba-cb5baac130d3",
      "meta": {
        "profile": [ "https://br-core.saude.gov.br/fhir/StructureDefinition/br-core-registroatendimentoclinico" ]
      },
      "status": "final",
      "type": {
        "coding": [ {
          "system": "https://loinc.org/",
          "code": "60591-5",
          "display": "Patient summary Document"
        } ],
        "text": "Patient summary Document"
      },
      "category": [ {
        "coding": [ {
          "system": "https://loinc.org/",
          "code": "11488-4",
          "display": "Consult note"
        } ],
        "text": "Consult note"
      } ],
      "subject": {
        "reference": "915292aa-aa83-43da-8c70-76e732bd967f"
      },
      "encounter": {
        "reference": "f814c04f-9ca0-4463-a51a-7bbf7e6a9df4"
      },
      "author": [ {
        "reference": "555efa1e-443d-4f08-8fe0-9cd82e3f5127"
      } ],
      "title": "Registro de Atendimento Clínico",
      "section": [ {
        "title": "Diagnósticos Avaliados",
        "code": {
          "coding": [ {
            "system": "https://loinc.org/",
            "code": "57852-6",
            "display": "Problem List"
          } ],
          "text": "Lista de Problemas - Diagnósticos Avaliados"
        },
        "entry": [ {
          "reference": "urn:uuid:ecc2581a-58bd-4a8b-b7f3-76eeab0f5a25"
        } ]
      }, {
        "title": "Procedimentos Realizados",
        "code": {
          "coding": [ {
            "system": "https://terminologia.saude.gov.br/fhir/CodeSystem/BRTabelaSUS",
            "code": "0211060127",
            "display": "MAPEAMENTO DE RETINA"
          } ],
          "text": "Procedimentos Realizados"
        },
        "entry": [ {
          "reference": "urn:uuid:87efcf40-08af-4bee-bb24-b48a396d9835"
        } ]
      }, {
        "title": "Sinais Vitais"
      }, {
        "title": "Alergias e Intolerâncias",
        "entry": [ {
          "reference": "urn:uuid:28935909-61ca-4808-9e19-b1bdd78a5e2d"
        } ]
      }, {
        "title": "Medicamentos"
      }, {
        "title": "Plano de Cuidados"
      } ]
    }
  }, {
    "fullUrl": "urn:uuid:915292aa-aa83-43da-8c70-76e732bd967f",
    "resource": {
      "resourceType": "Patient",
      "id": "915292aa-aa83-43da-8c70-76e732bd967f",
      "meta": {
        "profile": [ "https://br-core.saude.gov.br/fhir/StructureDefinition/br-core-patient|1.0.0" ]
      },
      "extension": [ {
        "url": "http://hl7.org/fhir/StructureDefinition/patient-birthPlace",
        "valueAddress": {
          "use": "home",
          "type": "both",
          "text": "Rua Paris",
          "line": [ "Rua Paris11" ],
          "city": "Paranavaí",
          "state": "PR",
          "postalCode": "87935-180",
          "country": "Brasil"
        }
      }, {
        "url": "http://hl7.org/fhir/StructureDefinition/patient-genderIdentity",
        "valueCodeableConcept": {
          "coding": [ {
            "system": "http://snomed.info/sct",
            "code": "446151000124109",
            "display": "Identifies as male gender (finding)"
          } ]
        }
      }, {
        "url": "https://ips.saude.gov.br/fhir/StructureDefinition/raca-br-ips",
        "valueCodeableConcept": {
          "coding": [ {
            "system": "https://terminologia.saude.gov.br/fhir/CodeSystem/BRRacaCor",
            "code": "04",
            "display": "Amarela"
          } ]
        }
      }, {
        "url": "https://ips.saude.gov.br/fhir/StructureDefinition/sexo-nascimento-br-ips",
        "valueCodeableConcept": {
          "coding": [ {
            "system": "http://hl7.org/fhir/administrative-gender",
            "code": "male",
            "display": "Masculino"
          } ]
        }
      } ],
      "identifier": [ {
        "use": "official",
        "type": {
          "coding": [ {
            "system": "http://terminology.hl7.org/CodeSystem/v2-0203",
            "code": "HC",
            "display": "Health Card Number"
          } ]
        },
        "system": "https://saude.gov.br/fhir/sid/cns",
        "value": "123456789"
      }, {
        "use": "official",
        "type": {
          "coding": [ {
            "system": "http://terminology.hl7.org/CodeSystem/v2-0203",
            "code": "TAX",
            "display": "Tax ID number"
          } ]
        },
        "system": "https://saude.gov.br/fhir/sid/cpf",
        "value": "12345678909"
      } ],
      "name": [ {
        "family": "Maeda",
        "given": [ "Fabiano" ]
      } ],
      "address": [ {
        "use": "home",
        "type": "both",
        "text": "Av. Brasil",
        "line": [ "Av. Brasil1" ],
        "city": "Rondon",
        "state": "PR",
        "postalCode": "87800-000",
        "country": "Brasil"
      } ],
      "contact": [ {
        "telecom": [ {
          "system": "phone",
          "value": "(61) 98888-8888",
          "use": "mobile"
        }, {
          "system": "phone",
          "value": "(61) 5555-8888",
          "use": "home"
        }, {
          "system": "email",
          "value": "teste@teste.com",
          "use": "home"
        } ],
        "address": {
          "use": "home",
          "type": "both",
          "text": "Av. São Paulo",
          "line": [ "Av. São Paulo123" ],
          "city": "Maringá",
          "state": "PR",
          "postalCode": "85000-000",
          "country": "Brasil"
        }
      } ]
    }
  }, {
    "fullUrl": "urn:uuid:064807c5-1cb7-4836-9c13-54f31bf07cdf",
    "resource": {
      "resourceType": "Organization",
      "id": "064807c5-1cb7-4836-9c13-54f31bf07cdf",
      "identifier": [ {
        "use": "official",
        "system": "https://saude.gov.br/sid/cnes",
        "value": "2079127"
      } ],
      "active": true,
      "type": [ {
        "coding": [ {
          "system": "https://terminologia.saude.gov.br/fhir/CodeSystem/BRTipoEstabelecimentoSaude",
          "code": "5",
          "display": "HOSPITAL GERAL"
        } ]
      } ],
      "name": "Hospital Sírio-Libanês"
    }
  }, {
    "fullUrl": "urn:uuid:555efa1e-443d-4f08-8fe0-9cd82e3f5127",
    "resource": {
      "resourceType": "Practitioner",
      "id": "555efa1e-443d-4f08-8fe0-9cd82e3f5127",
      "identifier": [ {
        "use": "official",
        "type": {
          "coding": [ {
            "system": "http://terminology.hl7.org/CodeSystem/v2-0203",
            "code": "MD",
            "display": "Medical License number"
          } ],
          "text": "Número de Registro no Conselho Federal de Medicina"
        },
        "system": "https://saude.gov.br/fhir/sid/crm-sp",
        "value": "123456"
      }, {
        "use": "official",
        "type": {
          "coding": [ {
            "system": "http://terminology.hl7.org/CodeSystem/v2-0203",
            "code": "HC",
            "display": "Health Card Number"
          } ],
          "text": "Número do Cartão Nacional de Saúde"
        },
        "system": "https://saude.gov.br/fhir/sid/cns",
        "value": "91092901209"
      } ],
      "active": true,
      "name": [ {
        "family": "Robledo"
      } ],
      "qualification": [ {
        "identifier": [ {
          "system": "https://saude.gov.br/fhir/sid/cns",
          "value": "91092901209"
        } ],
        "code": {
          "coding": [ {
            "system": "https://terminologia.saude.gov.br/fhir/CodeSystem-BRCBO.html",
            "code": "225125",
            "display": "Médico Clínico"
          } ]
        }
      } ]
    }
  }, {
    "fullUrl": "urn:uuid:7f1bd706-8f89-4f9b-92a3-3e1d27cc9c71",
    "resource": {
      "resourceType": "Location",
      "id": "7f1bd706-8f89-4f9b-92a3-3e1d27cc9c71",
      "identifier": [ {
        "use": "official",
        "system": "https://saude.gov.br/sid/cnes",
        "value": "2079127"
      } ],
      "status": "active",
      "name": "Hospital Sírio-Libanês",
      "mode": "instance",
      "type": [ {
        "coding": [ {
          "system": "https://terminologia.saude.gov.br/fhir/CodeSystem/BRServicoEspecializado",
          "code": "148",
          "display": "HOSPITAL DIA"
        } ],
        "text": "HOSPITAL DIA"
      } ],
      "managingOrganization": {
        "reference": "urn:uuid:064807c5-1cb7-4836-9c13-54f31bf07cdf"
      }
    }
  }, {
    "fullUrl": "urn:uuid:f814c04f-9ca0-4463-a51a-7bbf7e6a9df4",
    "resource": {
      "resourceType": "Encounter",
      "id": "f814c04f-9ca0-4463-a51a-7bbf7e6a9df4",
      "identifier": [ {
        "system": "https://saude.gov.br/fhir/sid/encounter",
        "value": "ENC-12345"
      } ],
      "status": "finished",
      "class": {
        "system": "http://terminology.hl7.org/CodeSystem/v3-ActCode",
        "code": "AMB",
        "display": "Ambulatory"
      },
      "type": [ {
        "coding": [ {
          "system": "https://terminologia.saude.gov.br/fhir/CodeSystem/BRAtendimentoPrestado",
          "code": "02",
          "display": "AMBULATORIAL"
        } ]
      } ],
      "serviceType": {
        "coding": [ {
          "system": "https://terminologia.saude.gov.br/fhir/CodeSystem/BRServicoEspecializado",
          "code": "116",
          "display": "SERVICO DE ATENCAO CARDIOVASCULAR CARDIOLOGIA"
        } ]
      },
      "priority": {
        "coding": [ {
          "system": "http://terminology.hl7.org/CodeSystem/v3-ActPriority",
          "code": "R",
          "display": "Routine"
        } ]
      },
      "subject": {
        "reference": "urn:uuid:915292aa-aa83-43da-8c70-76e732bd967f"
      },
      "participant": [ {
        "type": [ {
          "coding": [ {
            "system": "http://terminology.hl7.org/CodeSystem/v3-ParticipationType",
            "code": "ADM",
            "display": "admitter"
          } ]
        } ],
        "individual": {
          "reference": "urn:uuid:555efa1e-443d-4f08-8fe0-9cd82e3f5127"
        }
      } ],
      "period": {
        "start": "2024-04-05T10:00:00Z",
        "end": "2024-04-05T11:00:00Z"
      },
      "reasonCode": [ {
        "coding": [ {
          "system": "https://terminologia.saude.gov.br/fhir/CodeSystem/BRCID10",
          "code": "S42",
          "display": "FRATURA DO OMBRO E DO BRACO"
        } ]
      } ],
      "diagnosis": [ {
        "condition": {
          "reference": "urn:uuid:ecc2581a-58bd-4a8b-b7f3-76eeab0f5a25",
          "display": "FRATURA DO OMBRO E DO BRACO"
        },
        "use": {
          "coding": [ {
            "system": "http://terminology.hl7.org/CodeSystem/diagnosis-role",
            "code": "CC",
            "display": "Chief Complaint"
          } ]
        },
        "rank": 1
      } ],
      "location": [ {
        "location": {
          "reference": "urn:uuid:7f1bd706-8f89-4f9b-92a3-3e1d27cc9c71"
        },
        "status": "active"
      } ],
      "serviceProvider": {
        "reference": "urn:uuid:064807c5-1cb7-4836-9c13-54f31bf07cdf"
      }
    }
  }, {
    "fullUrl": "urn:uuid:ecc2581a-58bd-4a8b-b7f3-76eeab0f5a25",
    "resource": {
      "resourceType": "Condition",
      "id": "ecc2581a-58bd-4a8b-b7f3-76eeab0f5a25",
      "meta": {
        "profile": [ "https://br-core.saude.gov.br/fhir/StructureDefinition/br-core-condition" ]
      },
      "code": {
        "coding": [ {
          "system": "https://terminologia.saude.gov.br/fhir/CodeSystem/BRCID10",
          "code": "S42",
          "display": "FRATURA DO OMBRO E DO BRACO"
        } ]
      },
      "subject": {
        "reference": "urn:uuid:915292aa-aa83-43da-8c70-76e732bd967f"
      },
      "encounter": {
        "reference": "urn:uuid:f814c04f-9ca0-4463-a51a-7bbf7e6a9df4"
      },
      "onsetDateTime": "2024-04-05T10:00:00Z",
      "recordedDate": "2024-04-05T10:00:00Z"
    }
  }, {
    "fullUrl": "urn:uuid:87efcf40-08af-4bee-bb24-b48a396d9835",
    "resource": {
      "resourceType": "Procedure",
      "id": "87efcf40-08af-4bee-bb24-b48a396d9835",
      "identifier": [ {
        "system": "https://saude.gov.br/fhir/sid/procedure",
        "value": "0211060127"
      } ],
      "status": "completed",
      "code": {
        "coding": [ {
          "system": "https://terminologia.saude.gov.br/fhir/CodeSystem/BRTabelaSUS",
          "code": "0211060127",
          "display": "MAPEAMENTO DE RETINA"
        } ]
      },
      "subject": {
        "reference": "urn:uuid:915292aa-aa83-43da-8c70-76e732bd967f"
      },
      "encounter": {
        "reference": "urn:uuid:f814c04f-9ca0-4463-a51a-7bbf7e6a9df4"
      }
    }
  }, {
    "fullUrl": "urn:uuid:28935909-61ca-4808-9e19-b1bdd78a5e2d",
    "resource": {
      "resourceType": "AllergyIntolerance",
      "id": "28935909-61ca-4808-9e19-b1bdd78a5e2d",
      "clinicalStatus": {
        "coding": [ {
          "system": "http://terminology.hl7.org/CodeSystem/allergyintolerance-clinical",
          "code": "active",
          "display": "Active"
        } ]
      },
      "verificationStatus": {
        "coding": [ {
          "system": "http://terminology.hl7.org/CodeSystem/allergyintolerance-verification",
          "code": "confirmed",
          "display": "Confirmed"
        } ]
      },
      "type": "allergy",
      "category": [ "medication" ],
      "criticality": "high",
      "patient": {
        "reference": "urn:uuid:915292aa-aa83-43da-8c70-76e732bd967f"
      }
    }
  } ]
}