{
  "resourceType": "Bundle",
  "id": "b7b555d8-2936-4e0c-8f73-28c5065540aa",
  "identifier": {
    "system": "urn:ietf:rfc:3986",
    "value": "urn:uuid:5dc1a61b-31f5-4e36-b452-b7d416403c34"
  },
  "type": "document",
  "timestamp": "2025-03-21T16:56:20.801-03:00",
  "entry": [ {
    "fullUrl": "urn:uuid:a468ee70-eebc-4e06-8a62-28e1a6f211b4",
    "resource": {
      "resourceType": "Composition",
      "id": "a468ee70-eebc-4e06-8a62-28e1a6f211b4",
      "meta": {
        "profile": [ "https://br-core.saude.gov.br/fhir/StructureDefinition/br-core-registroatendimentoclinico" ]
      },
      "status": "final",
      "type": {
        "coding": [ {
          "system": "https://loinc.org/",
          "code": "60591-5",
          "display": "Patient summary Document"
        } ],
        "text": "Patient summary Document"
      },
      "category": [ {
        "coding": [ {
          "system": "https://loinc.org/",
          "code": "11488-4",
          "display": "Consult note"
        } ],
        "text": "Consult note"
      } ],
      "subject": {
        "reference": "44f0af38-ff37-456e-b742-b1d23b4f4cfb"
      },
      "encounter": {
        "reference": "5150890a-c134-47b7-89c0-56b292bd096e"
      },
      "author": [ {
        "reference": "e03c8309-fc89-4743-b8a3-63716f3287d1"
      } ],
      "title": "Registro de Atendimento Clínico",
      "section": [ {
        "title": "Diagnósticos Avaliados",
        "code": {
          "coding": [ {
            "system": "https://loinc.org/",
            "code": "57852-6",
            "display": "Problem List"
          } ],
          "text": "Lista de Problemas - Diagnósticos Avaliados"
        },
        "entry": [ {
          "reference": "urn:uuid:915bd570-aa79-4759-9bdb-6cd349c88a3e"
        } ]
      }, {
        "title": "Procedimentos Realizados",
        "code": {
          "coding": [ {
            "system": "https://terminologia.saude.gov.br/fhir/CodeSystem/BRTabelaSUS",
            "code": "0211060127",
            "display": "MAPEAMENTO DE RETINA"
          } ],
          "text": "Procedimentos Realizados"
        },
        "entry": [ {
          "reference": "urn:uuid:5bfab706-61cb-4194-b14c-8a99c052ea8b"
        } ]
      }, {
        "title": "Sinais Vitais"
      }, {
        "title": "Alergias e Intolerâncias",
        "entry": [ {
          "reference": "urn:uuid:1022f906-f829-4be4-8265-d2d0de68300c"
        } ]
      }, {
        "title": "Medicamentos"
      }, {
        "title": "Plano de Cuidados"
      } ]
    }
  }, {
    "fullUrl": "urn:uuid:44f0af38-ff37-456e-b742-b1d23b4f4cfb",
    "resource": {
      "resourceType": "Patient",
      "id": "44f0af38-ff37-456e-b742-b1d23b4f4cfb",
      "extension": [ {
        "url": "http://hl7.org/fhir/StructureDefinition/patient-birthPlace",
        "valueAddress": {
          "use": "home",
          "type": "both",
          "text": "Rua Paris",
          "line": [ "Rua Paris11" ],
          "city": "Paranavaí",
          "state": "PR",
          "postalCode": "87935-180",
          "country": "Brasil"
        }
      }, {
        "url": "http://hl7.org/fhir/StructureDefinition/patient-genderIdentity",
        "valueCodeableConcept": {
          "coding": [ {
            "system": "http://snomed.info/sct",
            "code": "446151000124109",
            "display": "Identifies as male gender (finding)"
          } ]
        }
      }, {
        "url": "https://ips.saude.gov.br/fhir/StructureDefinition/raca-br-ips",
        "valueCodeableConcept": {
          "coding": [ {
            "system": "https://terminologia.saude.gov.br/fhir/CodeSystem/BRRacaCor",
            "code": "04",
            "display": "Amarela"
          } ]
        }
      }, {
        "url": "https://ips.saude.gov.br/fhir/StructureDefinition/sexo-nascimento-br-ips",
        "valueCodeableConcept": {
          "coding": [ {
            "system": "http://hl7.org/fhir/administrative-gender",
            "code": "male",
            "display": "Masculino"
          } ]
        }
      } ],
      "identifier": [ {
        "use": "official",
        "type": {
          "coding": [ {
            "system": "http://terminology.hl7.org/CodeSystem/v2-0203",
            "code": "HC",
            "display": "Health Card Number"
          } ]
        },
        "system": "https://saude.gov.br/fhir/sid/cns",
        "value": "123456789"
      }, {
        "use": "official",
        "type": {
          "coding": [ {
            "system": "http://terminology.hl7.org/CodeSystem/v2-0203",
            "code": "TAX",
            "display": "Tax ID number"
          } ]
        },
        "system": "https://saude.gov.br/fhir/sid/cpf",
        "value": "12345678909"
      } ],
      "name": [ {
        "family": "Maeda",
        "given": [ "Fabiano" ]
      } ],
      "address": [ {
        "use": "home",
        "type": "both",
        "text": "Av. Brasil",
        "line": [ "Av. Brasil1" ],
        "city": "Rondon",
        "state": "PR",
        "postalCode": "87800-000",
        "country": "Brasil"
      } ],
      "contact": [ {
        "telecom": [ {
          "system": "phone",
          "value": "(61) 98888-8888",
          "use": "mobile"
        }, {
          "system": "phone",
          "value": "(61) 5555-8888",
          "use": "home"
        }, {
          "system": "email",
          "value": "teste@teste.com",
          "use": "home"
        } ],
        "address": {
          "use": "home",
          "type": "both",
          "text": "Av. São Paulo",
          "line": [ "Av. São Paulo123" ],
          "city": "Maringá",
          "state": "PR",
          "postalCode": "85000-000",
          "country": "Brasil"
        }
      } ]
    }
  }, {
    "fullUrl": "urn:uuid:cde83b90-2ef6-40ef-8557-38766be4ce5a",
    "resource": {
      "resourceType": "Organization",
      "id": "cde83b90-2ef6-40ef-8557-38766be4ce5a",
      "identifier": [ {
        "use": "official",
        "system": "https://saude.gov.br/sid/cnes",
        "value": "2079127"
      } ],
      "active": true,
      "type": [ {
        "coding": [ {
          "system": "https://terminologia.saude.gov.br/fhir/CodeSystem/BRTipoEstabelecimentoSaude",
          "code": "5",
          "display": "HOSPITAL GERAL"
        } ]
      } ],
      "name": "Hospital Sírio-Libanês"
    }
  }, {
    "fullUrl": "urn:uuid:e03c8309-fc89-4743-b8a3-63716f3287d1",
    "resource": {
      "resourceType": "Practitioner",
      "id": "e03c8309-fc89-4743-b8a3-63716f3287d1",
      "identifier": [ {
        "use": "official",
        "type": {
          "coding": [ {
            "system": "http://terminology.hl7.org/CodeSystem/v2-0203",
            "code": "MD",
            "display": "Medical License number"
          } ],
          "text": "Número de Registro no Conselho Federal de Medicina"
        },
        "system": "https://saude.gov.br/fhir/sid/crm-sp",
        "value": "123456"
      }, {
        "use": "official",
        "type": {
          "coding": [ {
            "system": "http://terminology.hl7.org/CodeSystem/v2-0203",
            "code": "HC",
            "display": "Health Card Number"
          } ],
          "text": "Número do Cartão Nacional de Saúde"
        },
        "system": "https://saude.gov.br/fhir/sid/cns",
        "value": "91092901209"
      } ],
      "active": true,
      "name": [ {
        "family": "Robledo"
      } ],
      "qualification": [ {
        "identifier": [ {
          "system": "https://saude.gov.br/fhir/sid/cns",
          "value": "91092901209"
        } ],
        "code": {
          "coding": [ {
            "system": "https://terminologia.saude.gov.br/fhir/CodeSystem-BRCBO.html",
            "code": "225125",
            "display": "Médico Clínico"
          } ]
        }
      } ]
    }
  }, {
    "fullUrl": "urn:uuid:346e01c7-fa2f-42dc-9341-6458642f3ac2",
    "resource": {
      "resourceType": "Location",
      "id": "346e01c7-fa2f-42dc-9341-6458642f3ac2",
      "identifier": [ {
        "use": "official",
        "system": "https://saude.gov.br/sid/cnes",
        "value": "2079127"
      } ],
      "status": "active",
      "name": "Hospital Sírio-Libanês",
      "mode": "instance",
      "type": [ {
        "coding": [ {
          "system": "https://terminologia.saude.gov.br/fhir/CodeSystem/BRServicoEspecializado",
          "code": "148",
          "display": "HOSPITAL DIA"
        } ],
        "text": "HOSPITAL DIA"
      } ],
      "managingOrganization": {
        "reference": "urn:uuid:cde83b90-2ef6-40ef-8557-38766be4ce5a"
      }
    }
  }, {
    "fullUrl": "urn:uuid:5150890a-c134-47b7-89c0-56b292bd096e",
    "resource": {
      "resourceType": "Encounter",
      "id": "5150890a-c134-47b7-89c0-56b292bd096e",
      "identifier": [ {
        "system": "https://saude.gov.br/fhir/sid/encounter",
        "value": "ENC-12345"
      } ],
      "status": "finished",
      "class": {
        "system": "http://terminology.hl7.org/CodeSystem/v3-ActCode",
        "code": "AMB",
        "display": "Ambulatory"
      },
      "type": [ {
        "coding": [ {
          "system": "https://terminologia.saude.gov.br/fhir/CodeSystem/BRAtendimentoPrestado",
          "code": "02",
          "display": "AMBULATORIAL"
        } ]
      } ],
      "serviceType": {
        "coding": [ {
          "system": "https://terminologia.saude.gov.br/fhir/CodeSystem/BRServicoEspecializado",
          "code": "116",
          "display": "SERVICO DE ATENCAO CARDIOVASCULAR CARDIOLOGIA"
        } ]
      },
      "priority": {
        "coding": [ {
          "system": "http://terminology.hl7.org/CodeSystem/v3-ActPriority",
          "code": "R",
          "display": "Routine"
        } ]
      },
      "subject": {
        "reference": "urn:uuid:44f0af38-ff37-456e-b742-b1d23b4f4cfb"
      },
      "participant": [ {
        "type": [ {
          "coding": [ {
            "system": "http://terminology.hl7.org/CodeSystem/v3-ParticipationType",
            "code": "ADM",
            "display": "admitter"
          } ]
        } ],
        "individual": {
          "reference": "urn:uuid:e03c8309-fc89-4743-b8a3-63716f3287d1"
        }
      } ],
      "period": {
        "start": "2024-04-05T10:00:00Z",
        "end": "2024-04-05T11:00:00Z"
      },
      "reasonCode": [ {
        "coding": [ {
          "system": "https://terminologia.saude.gov.br/fhir/CodeSystem/BRCID10",
          "code": "S42",
          "display": "FRATURA DO OMBRO E DO BRACO"
        } ]
      } ],
      "diagnosis": [ {
        "condition": {
          "reference": "urn:uuid:915bd570-aa79-4759-9bdb-6cd349c88a3e",
          "display": "FRATURA DO OMBRO E DO BRACO"
        },
        "use": {
          "coding": [ {
            "system": "http://terminology.hl7.org/CodeSystem/diagnosis-role",
            "code": "CC",
            "display": "Chief Complaint"
          } ]
        },
        "rank": 1
      } ],
      "location": [ {
        "location": {
          "reference": "urn:uuid:346e01c7-fa2f-42dc-9341-6458642f3ac2"
        },
        "status": "active"
      } ],
      "serviceProvider": {
        "reference": "urn:uuid:cde83b90-2ef6-40ef-8557-38766be4ce5a"
      }
    }
  }, {
    "fullUrl": "urn:uuid:915bd570-aa79-4759-9bdb-6cd349c88a3e",
    "resource": {
      "resourceType": "Condition",
      "id": "915bd570-aa79-4759-9bdb-6cd349c88a3e",
      "code": {
        "coding": [ {
          "system": "https://terminologia.saude.gov.br/fhir/CodeSystem/BRCID10",
          "code": "S42",
          "display": "FRATURA DO OMBRO E DO BRACO"
        } ]
      },
      "subject": {
        "reference": "urn:uuid:44f0af38-ff37-456e-b742-b1d23b4f4cfb"
      },
      "encounter": {
        "reference": "urn:uuid:5150890a-c134-47b7-89c0-56b292bd096e"
      },
      "onsetDateTime": "2024-04-05T10:00:00Z",
      "recordedDate": "2024-04-05T10:00:00Z"
    }
  }, {
    "fullUrl": "urn:uuid:5bfab706-61cb-4194-b14c-8a99c052ea8b",
    "resource": {
      "resourceType": "Procedure",
      "id": "5bfab706-61cb-4194-b14c-8a99c052ea8b",
      "identifier": [ {
        "system": "https://saude.gov.br/fhir/sid/procedure",
        "value": "0211060127"
      } ],
      "status": "completed",
      "code": {
        "coding": [ {
          "system": "https://terminologia.saude.gov.br/fhir/CodeSystem/BRTabelaSUS",
          "code": "0211060127",
          "display": "MAPEAMENTO DE RETINA"
        } ]
      },
      "subject": {
        "reference": "urn:uuid:44f0af38-ff37-456e-b742-b1d23b4f4cfb"
      },
      "encounter": {
        "reference": "urn:uuid:5150890a-c134-47b7-89c0-56b292bd096e"
      }
    }
  }, {
    "fullUrl": "urn:uuid:1022f906-f829-4be4-8265-d2d0de68300c",
    "resource": {
      "resourceType": "AllergyIntolerance",
      "id": "1022f906-f829-4be4-8265-d2d0de68300c",
      "clinicalStatus": {
        "coding": [ {
          "system": "http://terminology.hl7.org/CodeSystem/allergyintolerance-clinical",
          "code": "active",
          "display": "Active"
        } ]
      },
      "verificationStatus": {
        "coding": [ {
          "system": "http://terminology.hl7.org/CodeSystem/allergyintolerance-verification",
          "code": "confirmed",
          "display": "Confirmed"
        } ]
      },
      "type": "allergy",
      "category": [ "medication" ],
      "criticality": "high",
      "patient": {
        "reference": "urn:uuid:44f0af38-ff37-456e-b742-b1d23b4f4cfb"
      }
    }
  } ]
}