{
  "resourceType": "Bundle",
  "id": "b8e93673-8891-4cc8-ad3a-17cbfc5fb2b8",
  "identifier": {
    "system": "urn:ietf:rfc:3986",
    "value": "331910a5-5621-435b-908f-8a711e7b6e15"
  },
  "type": "document",
  "timestamp": "2025-03-21T09:32:41.818-03:00",
  "entry": [ {
    "fullUrl": "urn:uuid:e5311a56-ffae-4c98-9ce8-5bb175ab27aa",
    "resource": {
      "resourceType": "Composition",
      "id": "e5311a56-ffae-4c98-9ce8-5bb175ab27aa",
      "status": "final",
      "type": {
        "coding": [ {
          "system": "http://loinc.org",
          "code": "60591-5",
          "display": "Patient summary Document"
        } ],
        "text": "Patient summary Document"
      },
      "category": [ {
        "coding": [ {
          "system": "http://loinc.org",
          "code": "11488-4",
          "display": "Consult note"
        } ],
        "text": "Consult note"
      } ],
      "subject": {
        "reference": "urn:uuid:Paciente/207790-6543"
      },
      "encounter": {
        "reference": "urn:uuid:Atendimento/207790-75108"
      },
      "date": "2025-03-21T09:31:38.857290564",
      "author": [ {
        "reference": "urn:uuid:Profissional/207790-888"
      } ],
      "title": "Registro de Atendimento Clínico",
      "section": [ {
        "title": "Diagnósticos Avaliados",
        "code": {
          "coding": [ {
            "system": "http://loinc.org",
            "code": "57852-6",
            "display": "Problem list Reported"
          } ],
          "text": "Lista de Problemas - Diagnósticos Avaliados"
        },
        "entry": [ {
          "reference": "urn:uuid:Condicao/207790-2258"
        } ]
      }, {
        "title": "Procedimentos Realizados",
        "code": {
          "coding": [ {
            "system": "https://terminologia.saude.gov.br/fhir/CodeSystem/BRTabelaSUS",
            "code": "0211060127",
            "display": "MAPEAMENTO DE RETINA"
          } ],
          "text": "Procedimentos Realizados"
        },
        "entry": [ {
          "reference": "urn:uuid:565ee2c0-212f-44b5-a23f-d158ccf75adf"
        } ]
      }, {
        "title": "Sinais Vitais"
      }, {
        "title": "Alergias e Intolerâncias",
        "entry": [ {
          "reference": "urn:uuid:bdea77f8-ffcf-477e-bad1-d1bb8b228013"
        } ]
      }, {
        "title": "Medicamentos"
      }, {
        "title": "Plano de Cuidados"
      } ]
    }
  }, {
    "fullUrl": "urn:uuid:null",
    "resource": {
      "resourceType": "Patient",
      "extension": [ {
        "url": "http://hl7.org/fhir/StructureDefinition/patient-birthPlace",
        "valueAddress": {
          "use": "home",
          "type": "both",
          "text": "Rua Paris",
          "line": [ "Rua Paris11" ],
          "city": "Paranavaí",
          "state": "PR",
          "postalCode": "87935-180",
          "country": "Brasil"
        }
      }, {
        "url": "http://hl7.org/fhir/StructureDefinition/patient-genderIdentity",
        "valueCodeableConcept": {
          "coding": [ {
            "system": "http://snomed.info/sct",
            "code": "446151000124109",
            "display": "Identifies as male gender (finding)"
          } ]
        }
      }, {
        "url": "https://ips.saude.gov.br/fhir/StructureDefinition/raca-br-ips",
        "valueCodeableConcept": {
          "coding": [ {
            "system": "https://terminologia.saude.gov.br/fhir/CodeSystem/BRRacaCor",
            "code": "04",
            "display": "Amarela"
          } ]
        }
      }, {
        "url": "https://ips.saude.gov.br/fhir/StructureDefinition/sexo-nascimento-br-ips",
        "valueCodeableConcept": {
          "coding": [ {
            "system": "http://hl7.org/fhir/administrative-gender",
            "code": "male",
            "display": "Masculino"
          } ]
        }
      } ],
      "identifier": [ {
        "use": "official",
        "type": {
          "coding": [ {
            "system": "http://terminology.hl7.org/CodeSystem/v2-0203",
            "code": "HC",
            "display": "Health Card Number"
          } ]
        },
        "system": "https://saude.gov.br/fhir/sid/cns",
        "value": "123456789"
      }, {
        "use": "official",
        "type": {
          "coding": [ {
            "system": "http://terminology.hl7.org/CodeSystem/v2-0203",
            "code": "TAX",
            "display": "Tax ID number"
          } ]
        },
        "system": "https://saude.gov.br/fhir/sid/cpf",
        "value": "12345678909"
      } ],
      "name": [ {
        "family": "Maeda",
        "given": [ "Fabiano" ]
      } ],
      "address": [ {
        "use": "home",
        "type": "both",
        "text": "Av. Brasil",
        "line": [ "Av. Brasil1" ],
        "city": "Rondon",
        "state": "PR",
        "postalCode": "87800-000",
        "country": "Brasil"
      } ],
      "contact": [ {
        "telecom": [ {
          "system": "phone",
          "value": "(61) 98888-8888",
          "use": "mobile"
        }, {
          "system": "phone",
          "value": "(61) 5555-8888",
          "use": "home"
        }, {
          "system": "email",
          "value": "teste@teste.com",
          "use": "home"
        } ],
        "address": {
          "use": "home",
          "type": "both",
          "text": "Av. São Paulo",
          "line": [ "Av. São Paulo123" ],
          "city": "Maringá",
          "state": "PR",
          "postalCode": "85000-000",
          "country": "Brasil"
        }
      } ]
    }
  }, {
    "fullUrl": "urn:uuid:a7881f7a-28ce-46dc-91c5-1694772650b3",
    "resource": {
      "resourceType": "Organization",
      "id": "a7881f7a-28ce-46dc-91c5-1694772650b3",
      "identifier": [ {
        "use": "official",
        "system": "https://saude.gov.br/sid/cnes",
        "value": "2079127"
      } ],
      "active": true,
      "type": [ {
        "coding": [ {
          "system": "https://terminologia.saude.gov.br/fhir/CodeSystem/BRTipoEstabelecimentoSaude",
          "code": "5",
          "display": "HOSPITAL GERAL"
        } ]
      } ],
      "name": "Hospital Sírio-Libanês"
    }
  }, {
    "fullUrl": "urn:uuid:2c1a907b-6738-46ac-b3d6-982a81686f1d",
    "resource": {
      "resourceType": "Practitioner",
      "id": "2c1a907b-6738-46ac-b3d6-982a81686f1d",
      "identifier": [ {
        "use": "official",
        "type": {
          "coding": [ {
            "system": "http://terminology.hl7.org/CodeSystem/v2-0203",
            "code": "MD",
            "display": "Medical License number"
          } ],
          "text": "Número de Registro no Conselho Federal de Medicina"
        },
        "system": "https://saude.gov.br/fhir/sid/crm-sp",
        "value": "123456"
      }, {
        "use": "official",
        "type": {
          "coding": [ {
            "system": "http://terminology.hl7.org/CodeSystem/v2-0203",
            "code": "HC",
            "display": "Health Card Number"
          } ],
          "text": "Número do Cartão Nacional de Saúde"
        },
        "system": "https://saude.gov.br/fhir/sid/cns",
        "value": "91092901209"
      } ],
      "active": true,
      "name": [ {
        "family": "Robledo"
      } ],
      "qualification": [ {
        "identifier": [ {
          "system": "https://saude.gov.br/fhir/sid/cns",
          "value": "91092901209"
        } ],
        "code": {
          "coding": [ {
            "system": "https://terminologia.saude.gov.br/fhir/CodeSystem-BRCBO.html",
            "code": "225125",
            "display": "Médico Clínico"
          } ]
        }
      } ]
    }
  }, {
    "fullUrl": "urn:uuid:d19bbc69-7fca-4c80-a3d1-5fc94124409b",
    "resource": {
      "resourceType": "Location",
      "id": "d19bbc69-7fca-4c80-a3d1-5fc94124409b",
      "identifier": [ {
        "use": "official",
        "system": "https://saude.gov.br/sid/cnes",
        "value": "2079127"
      } ],
      "status": "active",
      "name": "Hospital Sírio-Libanês",
      "mode": "instance",
      "type": [ {
        "coding": [ {
          "system": "https://terminologia.saude.gov.br/fhir/CodeSystem/BRServicoEspecializado",
          "code": "148",
          "display": "HOSPITAL DIA"
        } ],
        "text": "HOSPITAL DIA"
      } ],
      "managingOrganization": {
        "reference": "urn:uuid:a7881f7a-28ce-46dc-91c5-1694772650b3"
      }
    }
  }, {
    "fullUrl": "urn:uuid:c24c00f8-39bd-4f22-9192-14ed54712aa5",
    "resource": {
      "resourceType": "Encounter",
      "id": "c24c00f8-39bd-4f22-9192-14ed54712aa5",
      "identifier": [ {
        "system": "https://saude.gov.br/fhir/sid/encounter",
        "value": "ENC-12345"
      } ],
      "status": "finished",
      "class": {
        "system": "http://terminology.hl7.org/CodeSystem/v3-ActCode",
        "code": "AMB",
        "display": "Ambulatory"
      },
      "type": [ {
        "coding": [ {
          "system": "https://terminologia.saude.gov.br/fhir/CodeSystem/BRAtendimentoPrestado",
          "code": "02",
          "display": "AMBULATORIAL"
        } ]
      } ],
      "serviceType": {
        "coding": [ {
          "system": "https://terminologia.saude.gov.br/fhir/CodeSystem/BRServicoEspecializado",
          "code": "116",
          "display": "SERVICO DE ATENCAO CARDIOVASCULAR CARDIOLOGIA"
        } ]
      },
      "priority": {
        "coding": [ {
          "system": "http://terminology.hl7.org/CodeSystem/v3-ActPriority",
          "code": "R",
          "display": "Routine"
        } ]
      },
      "subject": {
        "reference": "urn:uuid:null"
      },
      "participant": [ {
        "type": [ {
          "coding": [ {
            "system": "http://terminology.hl7.org/CodeSystem/v3-ParticipationType",
            "code": "ADM",
            "display": "admitter"
          } ]
        } ],
        "individual": {
          "reference": "urn:uuid:Profissional/207790-888"
        }
      } ],
      "period": {
        "start": "2025-03-21T09:31:38.856707518",
        "end": "2025-03-21T10:31:38.856744291"
      },
      "reasonCode": [ {
        "coding": [ {
          "system": "https://terminologia.saude.gov.br/fhir/CodeSystem/BRCID10",
          "code": "S42",
          "display": "FRATURA DO OMBRO E DO BRACO"
        } ]
      } ],
      "diagnosis": [ {
        "condition": {
          "reference": "urn:uuid:Condicao/207790-2258",
          "display": "FRATURA DO OMBRO E DO BRACO"
        },
        "use": {
          "coding": [ {
            "system": "http://terminology.hl7.org/CodeSystem/diagnosis-role",
            "code": "CC",
            "display": "Chief Complaint"
          } ]
        },
        "rank": 1
      } ],
      "location": [ {
        "location": {
          "reference": "urn:uuid:d19bbc69-7fca-4c80-a3d1-5fc94124409b"
        },
        "status": "active"
      } ],
      "serviceProvider": {
        "reference": "urn:uuid:a7881f7a-28ce-46dc-91c5-1694772650b3"
      }
    }
  }, {
    "fullUrl": "urn:uuid:1258dae2-e31b-4f36-a453-457875bc50c8",
    "resource": {
      "resourceType": "Condition",
      "id": "1258dae2-e31b-4f36-a453-457875bc50c8",
      "code": {
        "coding": [ {
          "system": "https://terminologia.saude.gov.br/fhir/CodeSystem/BRCID10",
          "code": "S42",
          "display": "FRATURA DO OMBRO E DO BRACO"
        } ]
      },
      "subject": {
        "reference": "urn:uuid:null"
      },
      "encounter": {
        "reference": "urn:uuid:c24c00f8-39bd-4f22-9192-14ed54712aa5"
      },
      "onsetDateTime": "2025-03-21T09:32:41.825177414",
      "recordedDate": "2024-04-05T10:00:00Z"
    }
  }, {
    "fullUrl": "urn:uuid:565ee2c0-212f-44b5-a23f-d158ccf75adf",
    "resource": {
      "resourceType": "Procedure",
      "id": "565ee2c0-212f-44b5-a23f-d158ccf75adf",
      "identifier": [ {
        "system": "https://saude.gov.br/fhir/sid/procedure",
        "value": "0211060127"
      } ],
      "status": "completed",
      "code": {
        "coding": [ {
          "system": "https://terminologia.saude.gov.br/fhir/CodeSystem/BRTabelaSUS",
          "code": "0211060127",
          "display": "MAPEAMENTO DE RETINA"
        } ]
      }
    }
  }, {
    "fullUrl": "urn:uuid:bdea77f8-ffcf-477e-bad1-d1bb8b228013",
    "resource": {
      "resourceType": "AllergyIntolerance",
      "id": "bdea77f8-ffcf-477e-bad1-d1bb8b228013",
      "type": "allergy",
      "category": [ "medication" ],
      "criticality": "high",
      "patient": {
        "reference": "urn:liberty:null"
      }
    }
  } ]
}